STUDYID,USUBJID,AESEQ,AESTDTC,AEENDTC,AEDECOD,AESEV,AESER
STUDY001,STUDY001-1001,1,2025-09-10,2025-09-12,HEADACHE,MILD,N
STUDY001,STUDY001-1002,1,2025-09-05,,NAUSEA,MODERATE,N
STUDY002,STUDY002-2001,1,2025-08-30,2025-09-02,RASH,SEVERE,Y
