STUDYID,USUBJID,CMTRT,CMSTDTC,CMENDTC
STUDY001,STUDY001-1001,PARACETAMOL,2025-09-10,2025-09-11
STUDY001,STUDY001-1002,ONDANSETRON,2025-09-05,
STUDY002,STUDY002-2001,HYDROCORTISONE,2025-08-30,2025-09-02
