STUDYID,USUBJID,SITEID,AGE,SEX,ARM,RFSTDTC,BRTHDTC
STUDY001,STUDY001-1001,100,56,M,Placebo,2025-09-01,1969-02-17
STUDY001,STUDY001-1002,101,62,F,DrugA,2025-09-03,1963-??-??
STUDY002,STUDY002-2001,201,45,F,DrugB,2025-08-25,1980-11-05
